stimFile,correctAnswer,intensity,stimuliGender,EmotionTests.thisRepN,EmotionTests.thisTrialN,EmotionTests.thisN,EmotionTests.thisIndex,Instructions.started,Instructions.stopped,mouse.started,mouse.stopped,image.started,image.stopped,slider.response,slider.rt,slider.started,slider.stopped,next_button.started,next_button.stopped,mouse_2.x,mouse_2.y,mouse_2.leftButton,mouse_2.midButton,mouse_2.rightButton,mouse_2.clicked_name,mouse_2.started,mouse_2.stopped,session,participant,age,gender,ethnicity,date,expName,psychopyVersion,frameRate,
,,,,,,,,17.981361799989827,None,0.00911562005057931,None,,,,,,,,,,,,,,,,,001,,,,,2022-11-21_14h12.46.798,blockedTrials,2022.1.3,59.9818854653299,
stims\IMG_0001.jpg,1,2,1,0,0,0,0,,,,,18.549028299981728,None,4,0.8309482000186108,18.48207449997426,None,18.48207449997426,None,0.6097222222222223,-0.5955555555555555,1,0,0,next_button,0.007691320002777502,None,001,,,,,2022-11-21_14h12.46.798,blockedTrials,2022.1.3,59.9818854653299,
stims\IMG_0002.jpg,4,1,1,0,1,1,1,,,,,19.632956899993587,None,4,0.3433216999983415,19.53312389997882,None,19.53312389997882,None,0.6180555555555556,-0.5866666666666667,1,0,0,next_button,0.0034912799892481416,None,001,,,,,2022-11-21_14h12.46.798,blockedTrials,2022.1.3,59.9818854653299,
stims\IMG_0003.jpg,3,2,1,0,2,2,2,,,,,20.1667547999823,None,4,0.330910299991956,20.083392799977446,None,20.083392799977446,None,0.6375,-0.6088888888888889,1,0,0,next_button,0.007483679975848645,None,001,,,,,2022-11-21_14h12.46.798,blockedTrials,2022.1.3,59.9818854653299,
stims\IMG_0004.jpg,1,1,1,0,3,3,3,,,,,21.03418689998216,None,4,0.30810870000277646,20.784060599980876,None,20.784060599980876,None,0.6902777777777778,-0.6111111111111112,1,0,0,next_button,0.00257712000166066,None,001,,,,,2022-11-21_14h12.46.798,blockedTrials,2022.1.3,59.9818854653299,
stims\IMG_0005.jpg,3,1,1,0,4,4,4,,,,,21.53477679999196,None,4,0.4976666999864392,21.38476669997908,None,21.38476669997908,None,0.6430555555555556,-0.6111111111111112,1,0,0,next_button,0.0061432800139300525,None,001,,,,,2022-11-21_14h12.46.798,blockedTrials,2022.1.3,59.9818854653299,
stims\IMG_0006.jpg,2,2,1,0,5,5,5,,,,,22.385485799983144,None,4,0.33656280001741834,22.26869159998023,None,22.26869159998023,None,0.6555555555555556,-0.6,1,0,0,next_button,0.014079840009799227,None,001,,,,,2022-11-21_14h12.46.798,blockedTrials,2022.1.3,59.9818854653299,
stims\IMG_0007.jpg,1,1,1,0,6,6,6,,,,,23.00304199999664,None,4,0.395183700020425,22.852928399981465,None,22.852928399981465,None,0.6027777777777777,-0.6155555555555555,1,0,0,next_button,0.0054812800080981106,None,001,,,,,2022-11-21_14h12.46.798,blockedTrials,2022.1.3,59.9818854653299,
stims\IMG_0008.jpg,4,1,1,0,7,7,7,,,,,23.60373509998317,None,4,0.3161087000044063,23.52023769999505,None,23.52023769999505,None,0.6555555555555556,-0.6044444444444445,1,0,0,next_button,0.010847200028365478,None,001,,,,,2022-11-21_14h12.46.798,blockedTrials,2022.1.3,59.9818854653299,
stims\IMG_0009.jpg,4,2,1,0,8,8,8,,,,,24.204121499991743,None,4,0.4788750999723561,24.120747299981304,None,24.120747299981304,None,0.6444444444444445,-0.6022222222222222,1,0,0,next_button,0.005674879968864843,None,001,,,,,2022-11-21_14h12.46.798,blockedTrials,2022.1.3,59.9818854653299,
stims\IMG_0010.jpg,1,1,1,0,9,9,9,,,,,24.95461919999798,None,4,0.4918873000133317,24.87115759999142,None,24.87115759999142,None,0.6472222222222223,-0.5888888888888889,1,0,0,next_button,0.0025943799992091954,None,001,,,,,2022-11-21_14h12.46.798,blockedTrials,2022.1.3,59.9818854653299,
stims\IMG_0011.jpg,2,2,1,0,10,10,10,,,,,25.705387599999085,None,4,0.5472389999777079,25.605209299974376,None,25.605209299974376,None,0.6055555555555555,-0.6,1,0,0,next_button,0.007285880012204871,None,001,,,,,2022-11-21_14h12.46.798,blockedTrials,2022.1.3,59.9818854653299,
stims\IMG_0012.jpg,3,1,1,0,11,11,11,,,,,26.47265709997737,None,4,0.4672600999765564,26.389249799976824,None,26.389249799976824,None,0.6986111111111111,-0.6044444444444445,1,0,0,next_button,0.007114779989933595,None,001,,,,,2022-11-21_14h12.46.798,blockedTrials,2022.1.3,59.9818854653299,
stims\IMG_0013.jpg,2,1,2,0,12,12,12,,,,,27.140023399988422,None,4,0.568566700007068,27.07364570000209,None,27.07364570000209,None,0.5944444444444444,-0.6022222222222222,1,0,0,next_button,0.01262779999524355,None,001,,,,,2022-11-21_14h12.46.798,blockedTrials,2022.1.3,59.9818854653299,
stims\IMG_0014.jpg,2,1,2,0,13,13,13,,,,,27.907380899996497,None,4,0.423012999992352,27.840837499999907,None,27.840837499999907,None,0.5875,-0.6244444444444445,1,0,0,next_button,0.01582230001804419,None,001,,,,,2022-11-21_14h12.46.798,blockedTrials,2022.1.3,59.9818854653299,
stims\IMG_0015.jpg,3,2,2,0,14,14,14,,,,,28.608402399986517,None,4,0.345296799991047,28.508300499990582,None,28.508300499990582,None,0.6347222222222222,-0.5933333333333334,1,0,0,next_button,0.006750340020516887,None,001,,,,,2022-11-21_14h12.46.798,blockedTrials,2022.1.3,59.9818854653299,
stims\IMG_0016.jpg,4,1,2,0,15,15,15,,,,,29.175757799996063,None,4,0.5247459999809507,29.09220220000134,None,29.09220220000134,None,0.5986111111111111,-0.5955555555555555,1,0,0,next_button,0.0011035799980163574,None,001,,,,,2022-11-21_14h12.46.798,blockedTrials,2022.1.3,59.9818854653299,
stims\IMG_0017.jpg,2,1,2,0,16,16,16,,,,,29.942737899982603,None,4,0.42926689999876544,29.842657999979565,None,29.842657999979565,None,0.5888888888888889,-0.5888888888888889,1,0,0,next_button,0.006544679956277832,None,001,,,,,2022-11-21_14h12.46.798,blockedTrials,2022.1.3,59.9818854653299,
stims\IMG_0018.jpg,2,2,2,0,17,17,17,,,,,30.576604599977145,None,4,0.5464301999891177,30.493350199976703,None,30.493350199976703,None,0.5861111111111111,-0.6022222222222222,1,0,0,next_button,0.00614657998085022,None,001,,,,,2022-11-21_14h12.46.798,blockedTrials,2022.1.3,59.9818854653299,
stims\IMG_0019.jpg,4,2,2,0,18,18,18,,,,,31.310637599992333,None,4,0.6141292000247631,31.243961999978637,None,31.243961999978637,None,0.5972222222222222,-0.5844444444444444,1,0,0,next_button,0.00810238000121899,None,001,,,,,2022-11-21_14h12.46.798,blockedTrials,2022.1.3,59.9818854653299,
stims\IMG_0020.jpg,3,1,2,0,19,19,19,,,,,32.244991399988066,None,4,0.8109479999984615,32.16141579998657,None,32.16141579998657,None,0.6083333333333333,-0.5933333333333334,1,0,0,next_button,0.005053679982665926,None,001,,,,,2022-11-21_14h12.46.798,blockedTrials,2022.1.3,59.9818854653299,
stims\IMG_0021.jpg,4,2,2,0,20,20,20,,,,,33.346267599990824,None,4,0.5139629999757744,33.22938769997563,None,33.22938769997563,None,0.6388888888888888,-0.6111111111111112,1,0,0,next_button,0.007464380003511906,None,001,,,,,2022-11-21_14h12.46.798,blockedTrials,2022.1.3,59.9818854653299,
stims\IMG_0022.jpg,3,2,2,0,21,21,21,,,,,34.163588499999605,None,None,None,34.08002189997933,None,34.08002189997933,None,0.6791666666666667,-0.6133333333333333,1,0,0,next_button,0.005959680012892932,None,001,,,,,2022-11-21_14h12.46.798,blockedTrials,2022.1.3,59.9818854653299,
stims\IMG_0023.jpg,1,2,2,0,22,22,22,,,,,34.46356109998305,None,None,None,34.38030009999056,None,34.38030009999056,None,0.6791666666666667,-0.6133333333333333,1,0,0,next_button,0.005840479949256405,None,001,,,,,2022-11-21_14h12.46.798,blockedTrials,2022.1.3,59.9818854653299,
stims\IMG_0024.jpg,1,2,2,0,23,23,23,,,,,34.780886499996996,None,None,None,34.69720830000006,None,34.69720830000006,None,0.6791666666666667,-0.6133333333333333,1,0,0,next_button,0.007720480003627017,None,001,,,,,2022-11-21_14h12.46.798,blockedTrials,2022.1.3,59.9818854653299,
