stimFile,correctAnswer,intensity,stimuliGender,EmotionTests.thisRepN,EmotionTests.thisTrialN,EmotionTests.thisN,EmotionTests.thisIndex,Instructions.started,Instructions.stopped,mouse.started,mouse.stopped,image.started,image.stopped,slider.response,slider.rt,slider.started,slider.stopped,next_button.started,next_button.stopped,mouse_2.x,mouse_2.y,mouse_2.leftButton,mouse_2.midButton,mouse_2.rightButton,mouse_2.clicked_name,mouse_2.started,mouse_2.stopped,session,participant,age,gender,ethnicity,date,expName,psychopyVersion,frameRate,
,,,,,,,,19.85953889999655,None,0.002357630175538361,None,,,,,,,,,,,,,,,,,001,,,,,2022-11-21_18h10.28.197,blockedTrials,2022.1.3,59.9367307831847,
stims\IMG_0001.jpg,1,2,1,0,0,0,0,,,,,41.97975729999598,None,4,1.0912875999929383,41.89615970000159,None,41.89615970000159,None,0.5875,-0.5822222222222222,1,0,0,next_button,0.000901140010682866,None,001,,,,,2022-11-21_18h10.28.197,blockedTrials,2022.1.3,59.9367307831847,
stims\IMG_0002.jpg,4,1,1,0,1,1,1,,,,,43.24744079998345,None,4,0.5094430999888573,43.16402840000228,None,43.16402840000228,None,0.5902777777777778,-0.5866666666666667,1,0,0,next_button,0.0034790399949997663,None,001,,,,,2022-11-21_18h10.28.197,blockedTrials,2022.1.3,59.9367307831847,
stims\IMG_0003.jpg,3,2,1,0,2,2,2,,,,,43.94813279999653,None,4,0.49063079999177717,43.88140439998824,None,43.88140439998824,None,0.5986111111111111,-0.5866666666666667,1,0,0,next_button,0.0015682399971410632,None,001,,,,,2022-11-21_18h10.28.197,blockedTrials,2022.1.3,59.9367307831847,
stims\IMG_0004.jpg,1,1,1,0,3,3,3,,,,,44.98241510000662,None,4,0.5403527000162285,44.74893480000901,None,44.74893480000901,None,0.6125,-0.5644444444444444,1,0,0,next_button,0.01464091002708301,None,001,,,,,2022-11-21_18h10.28.197,blockedTrials,2022.1.3,59.9367307831847,
stims\IMG_0005.jpg,3,1,1,0,4,4,4,,,,,45.68323309998959,None,None,None,45.53298530000029,None,45.53298530000029,None,0.6458333333333334,-0.5733333333333334,1,0,0,next_button,0.0034208400174975395,None,001,,,,,2022-11-21_18h10.28.197,blockedTrials,2022.1.3,59.9367307831847,
stims\IMG_0006.jpg,2,2,1,0,5,5,5,,,,,None,None,None,None,46.050317699991865,None,46.050317699991865,None,0.6458333333333334,-0.5711111111111111,1,0,0,next_button,0.00800631003221497,None,001,,,,,2022-11-21_18h10.28.197,blockedTrials,2022.1.3,59.9367307831847,
stims\IMG_0007.jpg,1,1,1,0,6,6,6,,,,,46.2168393000029,None,None,None,46.13353829999687,None,46.13353829999687,None,0.6458333333333334,-0.5666666666666667,1,0,0,next_button,0.0038374399882741272,None,001,,,,,2022-11-21_18h10.28.197,blockedTrials,2022.1.3,59.9367307831847,
stims\IMG_0008.jpg,4,1,1,0,7,7,7,,,,,46.46707739998237,None,None,None,46.38364310000907,None,46.38364310000907,None,0.6458333333333334,-0.5666666666666667,1,0,0,next_button,0.0037125399976503104,None,001,,,,,2022-11-21_18h10.28.197,blockedTrials,2022.1.3,59.9367307831847,
stims\IMG_0009.jpg,4,2,1,0,8,8,8,,,,,46.66743899998255,None,None,None,46.58402099998784,None,46.58402099998784,None,0.6458333333333334,-0.5644444444444444,1,0,0,next_button,0.005244839994702488,None,001,,,,,2022-11-21_18h10.28.197,blockedTrials,2022.1.3,59.9367307831847,
stims\IMG_0010.jpg,1,1,1,0,9,9,9,,,,,46.901029900007416,None,None,None,46.817505199986044,None,46.817505199986044,None,0.6458333333333334,-0.56,1,0,0,next_button,0.007354039989877492,None,001,,,,,2022-11-21_18h10.28.197,blockedTrials,2022.1.3,59.9367307831847,
stims\IMG_0011.jpg,2,2,1,0,10,10,10,,,,,47.184810599981574,None,None,None,47.06797709999955,None,47.06797709999955,None,0.6458333333333334,-0.56,1,0,0,next_button,0.005206549976719543,None,001,,,,,2022-11-21_18h10.28.197,blockedTrials,2022.1.3,59.9367307831847,
stims\IMG_0012.jpg,3,1,1,0,11,11,11,,,,,47.368255499983206,None,None,None,47.28486620000331,None,47.28486620000331,None,0.6458333333333334,-0.56,1,0,0,next_button,0.011005249980371445,None,001,,,,,2022-11-21_18h10.28.197,blockedTrials,2022.1.3,59.9367307831847,
stims\IMG_0013.jpg,2,1,2,0,12,12,12,,,,,47.63495109998621,None,None,None,47.55153120000614,None,47.55153120000614,None,0.6458333333333334,-0.56,1,0,0,next_button,0.007707139942795038,None,001,,,,,2022-11-21_18h10.28.197,blockedTrials,2022.1.3,59.9367307831847,
stims\IMG_0014.jpg,2,1,2,0,13,13,13,,,,,47.85179670000798,None,None,None,47.78512749998481,None,47.78512749998481,None,0.6458333333333334,-0.56,1,0,0,next_button,0.007984739990206435,None,001,,,,,2022-11-21_18h10.28.197,blockedTrials,2022.1.3,59.9367307831847,
stims\IMG_0015.jpg,3,2,2,0,14,14,14,,,,,48.15214689998538,None,None,None,48.0687070999993,None,48.0687070999993,None,0.6458333333333334,-0.56,1,0,0,next_button,0.007145539973862469,None,001,,,,,2022-11-21_18h10.28.197,blockedTrials,2022.1.3,59.9367307831847,
stims\IMG_0016.jpg,4,1,2,0,15,15,15,,,,,48.40228650000063,None,None,None,48.318945300008636,None,48.318945300008636,None,0.6458333333333334,-0.5577777777777778,1,0,0,next_button,0.0016800400044303387,None,001,,,,,2022-11-21_18h10.28.197,blockedTrials,2022.1.3,59.9367307831847,
stims\IMG_0017.jpg,2,1,2,0,16,16,16,,,,,48.61914819999947,None,None,None,48.53585779998684,None,48.53585779998684,None,0.6458333333333334,-0.5577777777777778,1,0,0,next_button,0.006955539982300252,None,001,,,,,2022-11-21_18h10.28.197,blockedTrials,2022.1.3,59.9367307831847,
stims\IMG_0018.jpg,2,2,2,0,17,17,17,,,,,48.81934389998787,None,None,None,48.752657899982296,None,48.752657899982296,None,0.6458333333333334,-0.5577777777777778,1,0,0,next_button,0.008516139991115779,None,001,,,,,2022-11-21_18h10.28.197,blockedTrials,2022.1.3,59.9367307831847,
stims\IMG_0019.jpg,4,2,2,0,18,18,18,,,,,49.0362710999907,None,None,None,48.96952419998706,None,48.96952419998706,None,0.6458333333333334,-0.5577777777777778,1,0,0,next_button,0.008216440008254722,None,001,,,,,2022-11-21_18h10.28.197,blockedTrials,2022.1.3,59.9367307831847,
stims\IMG_0020.jpg,3,1,2,0,19,19,19,,,,,49.336478399985936,None,None,None,49.27000190000399,None,49.27000190000399,None,0.6458333333333334,-0.5577777777777778,1,0,0,next_button,0.00847314001293853,None,001,,,,,2022-11-21_18h10.28.197,blockedTrials,2022.1.3,59.9367307831847,
stims\IMG_0021.jpg,4,2,2,0,20,20,20,,,,,49.653473899990786,None,None,None,49.58681169999181,None,49.58681169999181,None,0.6458333333333334,-0.5577777777777778,1,0,0,next_button,0.008738939941395074,None,001,,,,,2022-11-21_18h10.28.197,blockedTrials,2022.1.3,59.9367307831847,
stims\IMG_0022.jpg,3,2,2,0,21,21,21,,,,,50.037236400006805,None,None,None,49.95381149998866,None,49.95381149998866,None,0.6458333333333334,-0.5577777777777778,1,0,0,next_button,0.003859839984215796,None,001,,,,,2022-11-21_18h10.28.197,blockedTrials,2022.1.3,59.9367307831847,
stims\IMG_0023.jpg,1,2,2,0,22,22,22,,,,,50.48787129999255,None,None,None,50.421191200002795,None,50.421191200002795,None,0.6458333333333334,-0.5577777777777778,1,0,0,next_button,0.011859280028147623,None,001,,,,,2022-11-21_18h10.28.197,blockedTrials,2022.1.3,59.9367307831847,
stims\IMG_0024.jpg,1,2,2,0,23,23,23,,,,,50.78795790000004,None,None,None,50.70469749998301,None,50.70469749998301,None,0.6458333333333334,-0.5577777777777778,1,0,0,next_button,0.004838139982894063,None,001,,,,,2022-11-21_18h10.28.197,blockedTrials,2022.1.3,59.9367307831847,
