stimFile,correctAnswer,intensity,stimuliGender,EmotionTests.thisRepN,EmotionTests.thisTrialN,EmotionTests.thisN,EmotionTests.thisIndex,Instructions.started,Instructions.stopped,mouse.started,mouse.stopped,image.started,image.stopped,slider.response,slider.rt,slider.started,slider.stopped,next_button.started,next_button.stopped,mouse_2.x,mouse_2.y,mouse_2.leftButton,mouse_2.midButton,mouse_2.rightButton,mouse_2.clicked_name,mouse_2.started,mouse_2.stopped,session,participant,age,gender,ethnicity,date,expName,psychopyVersion,frameRate,
,,,,,,,,16.712699099996826,None,0.009700999857159331,None,,,,,,,,,,,,,,,,,001,,,,,2022-11-21_13h07.19.198,blockedTrials,2022.1.3,60.02645966224406,
stims\IMG_0001.jpg,1,2,1,0,0,0,0,,,,,17.18001899999217,None,4,0.8396077000070363,17.09649470000295,None,17.09649470000295,None,0.6555555555555556,-0.5755555555555556,1,0,0,next_button,0.015909549983916804,None,001,,,,,2022-11-21_13h07.19.198,blockedTrials,2022.1.3,60.02645966224406,
stims\IMG_0002.jpg,4,1,1,0,1,1,1,,,,,18.264086400013184,None,4,0.3630270000139717,18.180635900003836,None,18.180635900003836,None,0.6930555555555555,-0.6111111111111112,1,0,0,next_button,0.0034548399853520095,None,001,,,,,2022-11-21_13h07.19.198,blockedTrials,2022.1.3,60.02645966224406,
stims\IMG_0003.jpg,3,2,1,0,2,2,2,,,,,18.931539499986684,None,4,0.41267489999881946,18.831329600012396,None,18.831329600012396,None,0.6361111111111111,-0.6044444444444445,1,0,0,next_button,0.006320449989289045,None,001,,,,,2022-11-21_13h07.19.198,blockedTrials,2022.1.3,60.02645966224406,
stims\IMG_0004.jpg,1,1,1,0,3,3,3,,,,,19.848889599990798,None,4,0.3574096000229474,19.59876439999789,None,19.59876439999789,None,0.6958333333333333,-0.6244444444444445,1,0,0,next_button,0.0005918100359849632,None,001,,,,,2022-11-21_13h07.19.198,blockedTrials,2022.1.3,60.02645966224406,
stims\IMG_0005.jpg,3,1,1,0,4,4,4,,,,,20.3660429000156,None,4,0.3868256999994628,20.232928799989168,None,20.232928799989168,None,0.6208333333333333,-0.6155555555555555,1,0,0,next_button,0.01382264998392202,None,001,,,,,2022-11-21_13h07.19.198,blockedTrials,2022.1.3,60.02645966224406,
stims\IMG_0006.jpg,2,2,1,0,5,5,5,,,,,21.116815199988196,None,4,0.36023339998791926,20.98332699999446,None,20.98332699999446,None,0.6430555555555556,-0.6044444444444445,1,0,0,next_button,0.003826710017165169,None,001,,,,,2022-11-21_13h07.19.198,blockedTrials,2022.1.3,60.02645966224406,
stims\IMG_0007.jpg,1,1,1,0,6,6,6,,,,,21.70092289999593,None,3,0.5587616999982856,21.5674735000066,None,21.5674735000066,None,0.7222222222222222,-0.6466666666666666,1,0,0,next_button,0.016444649983895943,None,001,,,,,2022-11-21_13h07.19.198,blockedTrials,2022.1.3,60.02645966224406,
stims\IMG_0008.jpg,4,1,1,0,7,7,7,,,,,22.451584900001762,None,3,0.5385537999973167,22.368247900012648,None,22.368247900012648,None,0.7,-0.6355555555555555,1,0,0,next_button,0.012935850012581795,None,001,,,,,2022-11-21_13h07.19.198,blockedTrials,2022.1.3,60.02645966224406,
stims\IMG_0009.jpg,4,2,1,0,8,8,8,,,,,23.335690700012492,None,3,0.627908499998739,23.25216870001168,None,23.25216870001168,None,0.6847222222222222,-0.5755555555555556,1,0,0,next_button,0.004608839983120561,None,001,,,,,2022-11-21_13h07.19.198,blockedTrials,2022.1.3,60.02645966224406,
stims\IMG_0010.jpg,1,1,1,0,9,9,9,,,,,24.420400200004224,None,3,0.5967666000069585,24.303241599991452,None,24.303241599991452,None,0.6875,-0.6488888888888888,1,0,0,next_button,0.006466740014730021,None,001,,,,,2022-11-21_13h07.19.198,blockedTrials,2022.1.3,60.02645966224406,
stims\IMG_0011.jpg,2,2,1,0,10,10,10,,,,,25.23771630000556,None,3,0.47906090001924895,25.137308200006373,None,25.137308200006373,None,0.6333333333333333,-0.6022222222222222,1,0,0,next_button,0.005710839992389083,None,001,,,,,2022-11-21_13h07.19.198,blockedTrials,2022.1.3,60.02645966224406,
stims\IMG_0012.jpg,3,1,1,0,11,11,11,,,,,26.004812300001504,None,3,0.5452216999838129,25.921350099990377,None,25.921350099990377,None,0.5666666666666667,-0.6044444444444445,1,0,0,next_button,0.005447039991850033,None,001,,,,,2022-11-21_13h07.19.198,blockedTrials,2022.1.3,60.02645966224406,
stims\IMG_0013.jpg,2,1,2,0,12,12,12,,,,,26.755481200001668,None,2,0.5509002000035252,26.689096399990376,None,26.689096399990376,None,0.5388888888888889,-0.58,1,0,0,next_button,0.008295039995573461,None,001,,,,,2022-11-21_13h07.19.198,blockedTrials,2022.1.3,60.02645966224406,
stims\IMG_0014.jpg,2,1,2,0,13,13,13,,,,,27.823402999987593,None,2,0.7042706000211183,27.73992329998873,None,27.73992329998873,None,0.7013888888888888,-0.5933333333333334,1,0,0,next_button,0.01365364997764118,None,001,,,,,2022-11-21_13h07.19.198,blockedTrials,2022.1.3,60.02645966224406,
stims\IMG_0015.jpg,3,2,2,0,14,14,14,,,,,29.591662899998482,None,2,0.6300174999923911,29.50837669998873,None,29.50837669998873,None,0.5944444444444444,-0.6022222222222222,1,0,0,next_button,0.006305239978246391,None,001,,,,,2022-11-21_13h07.19.198,blockedTrials,2022.1.3,60.02645966224406,
stims\IMG_0016.jpg,4,1,2,0,15,15,15,,,,,30.692528199986555,None,2,0.6571948000055272,30.60916520000319,None,30.60916520000319,None,0.5722222222222222,-0.5777777777777777,1,0,0,next_button,0.0007199399697128683,None,001,,,,,2022-11-21_13h07.19.198,blockedTrials,2022.1.3,60.02645966224406,
stims\IMG_0017.jpg,2,1,2,0,16,16,16,,,,,31.743589499994414,None,2,0.6300631999911275,31.660212999995565,None,31.660212999995565,None,0.5888888888888889,-0.5977777777777777,1,0,0,next_button,0.005834540002979338,None,001,,,,,2022-11-21_13h07.19.198,blockedTrials,2022.1.3,60.02645966224406,
stims\IMG_0018.jpg,2,2,2,0,17,17,17,,,,,32.778079200012144,None,2,0.6552865999983624,32.69453199999407,None,32.69453199999407,None,0.5833333333333334,-0.5577777777777778,1,0,0,next_button,0.014497349999146536,None,001,,,,,2022-11-21_13h07.19.198,blockedTrials,2022.1.3,60.02645966224406,
stims\IMG_0019.jpg,4,2,2,0,18,18,18,,,,,33.87906340000336,None,1,0.6577537000121083,33.81257919999189,None,33.81257919999189,None,0.6138888888888889,-0.6088888888888889,1,0,0,next_button,0.0016863500059116632,None,001,,,,,2022-11-21_13h07.19.198,blockedTrials,2022.1.3,60.02645966224406,
stims\IMG_0020.jpg,3,1,2,0,19,19,19,,,,,35.0970229000086,None,1,0.5930435999762267,34.99672739999369,None,34.99672739999369,None,0.625,-0.5866666666666667,1,0,0,next_button,0.0028245399880688637,None,001,,,,,2022-11-21_13h07.19.198,blockedTrials,2022.1.3,60.02645966224406,
stims\IMG_0021.jpg,4,2,2,0,20,20,20,,,,,36.648562499991385,None,1,0.581818899983773,36.565219999989495,None,36.565219999989495,None,0.7194444444444444,-0.6377777777777778,1,0,0,next_button,0.0063962399726733565,None,001,,,,,2022-11-21_13h07.19.198,blockedTrials,2022.1.3,60.02645966224406,
stims\IMG_0022.jpg,3,2,2,0,21,21,21,,,,,37.64937009999994,None,1,0.6560829000081867,37.58328329998767,None,37.58328329998767,None,0.5513888888888889,-0.5866666666666667,1,0,0,next_button,5.534000229090452e-05,None,001,,,,,2022-11-21_13h07.19.198,blockedTrials,2022.1.3,60.02645966224406,
stims\IMG_0023.jpg,1,2,2,0,22,22,22,,,,,38.767192900006194,None,1,1.3466585999995004,38.6671605000156,None,38.6671605000156,None,0.5736111111111111,-0.5644444444444444,1,0,0,next_button,0.005947550031123683,None,001,,,,,2022-11-21_13h07.19.198,blockedTrials,2022.1.3,60.02645966224406,
stims\IMG_0024.jpg,1,2,2,0,23,23,23,,,,,40.56888760000584,None,1,0.7811097000085283,40.48548870001105,None,40.48548870001105,None,0.6222222222222222,-0.5955555555555555,1,0,0,next_button,0.007330939988605678,None,001,,,,,2022-11-21_13h07.19.198,blockedTrials,2022.1.3,60.02645966224406,
