stimFile,correctAnswer,intensity,stimuliGender,EmotionTests.thisRepN,EmotionTests.thisTrialN,EmotionTests.thisN,EmotionTests.thisIndex,Instructions.started,Instructions.stopped,mouse.started,mouse.stopped,image.started,image.stopped,slider.response,slider.rt,slider.started,slider.stopped,next_button.started,next_button.stopped,mouse_2.x,mouse_2.y,mouse_2.leftButton,mouse_2.midButton,mouse_2.rightButton,mouse_2.clicked_name,mouse_2.started,mouse_2.stopped,session,participant,age,gender,ethnicity,date,expName,psychopyVersion,frameRate,
,,,,,,,,20.469073900021613,None,0.006607800140045583,None,,,,,,,,,,,,,,,,,001,,,,,2022-11-21_18h54.56.169,blockedTrials,2022.1.3,59.97220888322041,
stims\IMG_0001.jpg,1,2,1,0,0,0,0,,,,,20.98616810000385,None,4,0.596626800019294,20.90282390001812,None,20.90282390001812,None,0.6194444444444445,-0.6133333333333333,1,0,0,next_button,0.004086880013346672,None,001,,,,,2022-11-21_18h54.56.169,blockedTrials,2022.1.3,59.97220888322041,
stims\IMG_0002.jpg,4,1,1,0,1,1,1,,,,,21.87048660000437,None,3,0.5904747999738902,21.787295800022548,None,21.787295800022548,None,0.5402777777777777,-0.5666666666666667,1,0,0,next_button,0.0011135999811813235,None,001,,,,,2022-11-21_18h54.56.169,blockedTrials,2022.1.3,59.97220888322041,
stims\IMG_0003.jpg,3,2,1,0,2,2,2,,,,,22.75447320000967,None,2,0.565851899998961,22.671060699998634,None,22.671060699998634,None,0.5541666666666667,-0.5977777777777777,1,0,0,next_button,0.007293280039448291,None,001,,,,,2022-11-21_18h54.56.169,blockedTrials,2022.1.3,59.97220888322041,
stims\IMG_0004.jpg,1,1,1,0,3,3,3,,,,,23.972269799996866,None,1,0.5550319000030868,23.77244940001401,None,23.77244940001401,None,0.6111111111111112,-0.62,1,0,0,next_button,0.016271659987978637,None,001,,,,,2022-11-21_18h54.56.169,blockedTrials,2022.1.3,59.97220888322041,
stims\IMG_0005.jpg,3,1,1,0,4,4,4,,,,,25.040156000002753,None,None,None,24.873156600020593,None,24.873156600020593,None,0.6458333333333334,-0.6244444444444445,1,0,0,next_button,0.0009856800315901637,None,001,,,,,2022-11-21_18h54.56.169,blockedTrials,2022.1.3,59.97220888322041,
stims\IMG_0006.jpg,2,2,1,0,5,5,5,,,,,25.507068000006257,None,None,None,25.373759500012966,None,25.373759500012966,None,0.6458333333333334,-0.62,1,0,0,next_button,0.0059807400102727115,None,001,,,,,2022-11-21_18h54.56.169,blockedTrials,2022.1.3,59.97220888322041,
stims\IMG_0007.jpg,1,1,1,0,6,6,6,,,,,25.75753760000225,None,None,None,25.623868399998173,None,25.623868399998173,None,0.6458333333333334,-0.62,1,0,0,next_button,0.009258300007786602,None,001,,,,,2022-11-21_18h54.56.169,blockedTrials,2022.1.3,59.97220888322041,
stims\IMG_0008.jpg,4,1,1,0,7,7,7,,,,,25.990852500020992,None,None,None,25.924081400007708,None,25.924081400007708,None,0.6458333333333334,-0.62,1,0,0,next_button,0.008118480007397011,None,001,,,,,2022-11-21_18h54.56.169,blockedTrials,2022.1.3,59.97220888322041,
stims\IMG_0009.jpg,4,2,1,0,8,8,8,,,,,26.191262100008316,None,None,None,26.09095090001938,None,26.09095090001938,None,0.6458333333333334,-0.6177777777777778,1,0,0,next_button,0.006634780002059415,None,001,,,,,2022-11-21_18h54.56.169,blockedTrials,2022.1.3,59.97220888322041,
stims\IMG_0010.jpg,1,1,1,0,9,9,9,,,,,None,None,None,None,26.341422800003784,None,26.341422800003784,None,0.6458333333333334,-0.6177777777777778,1,0,0,next_button,0.0099160399986431,None,001,,,,,2022-11-21_18h54.56.169,blockedTrials,2022.1.3,59.97220888322041,
stims\IMG_0011.jpg,2,2,1,0,10,10,10,,,,,None,None,None,None,26.474747700005537,None,26.474747700005537,None,0.6458333333333334,-0.6177777777777778,1,0,0,next_button,0.0050594199856277555,None,001,,,,,2022-11-21_18h54.56.169,blockedTrials,2022.1.3,59.97220888322041,
stims\IMG_0012.jpg,3,1,1,0,11,11,11,,,,,26.67506072001415,None,None,None,26.608296699996572,None,26.608296699996572,None,0.6458333333333334,-0.6177777777777778,1,0,0,next_button,0.009989699989091605,None,001,,,,,2022-11-21_18h54.56.169,blockedTrials,2022.1.3,59.97220888322041,
stims\IMG_0013.jpg,2,1,2,0,12,12,12,,,,,26.84187020000536,None,None,None,26.75844970002072,None,26.75844970002072,None,0.6458333333333334,-0.6155555555555555,1,0,0,next_button,0.010904099995968863,None,001,,,,,2022-11-21_18h54.56.169,blockedTrials,2022.1.3,59.97220888322041,
stims\IMG_0014.jpg,2,1,2,0,13,13,13,,,,,None,None,None,None,26.941655000002356,None,26.941655000002356,None,0.6458333333333334,-0.6155555555555555,1,0,0,next_button,0.0006622799846809357,None,001,,,,,2022-11-21_18h54.56.169,blockedTrials,2022.1.3,59.97220888322041,
stims\IMG_0015.jpg,3,2,2,0,14,14,14,,,,,27.125304000015603,None,None,None,27.058474699995713,None,27.058474699995713,None,0.6458333333333334,-0.6155555555555555,1,0,0,next_button,0.00902988002053462,None,001,,,,,2022-11-21_18h54.56.169,blockedTrials,2022.1.3,59.97220888322041,
stims\IMG_0016.jpg,4,1,2,0,15,15,15,,,,,None,None,None,None,27.208701700001257,None,27.208701700001257,None,0.6458333333333334,-0.6133333333333333,1,0,0,next_button,0.004966280015651137,None,001,,,,,2022-11-21_18h54.56.169,blockedTrials,2022.1.3,59.97220888322041,
stims\IMG_0017.jpg,2,1,2,0,16,16,16,,,,,27.425703400018392,None,None,None,27.34222980000777,None,27.34222980000777,None,0.6472222222222223,-0.6133333333333333,1,0,0,next_button,0.007007680018432438,None,001,,,,,2022-11-21_18h54.56.169,blockedTrials,2022.1.3,59.97220888322041,
stims\IMG_0018.jpg,2,2,2,0,17,17,17,,,,,27.592428020003716,None,None,None,27.508932199998526,None,27.508932199998526,None,0.6472222222222223,-0.6133333333333333,1,0,0,next_button,0.00699408003129065,None,001,,,,,2022-11-21_18h54.56.169,blockedTrials,2022.1.3,59.97220888322041,
stims\IMG_0019.jpg,4,2,2,0,18,18,18,,,,,27.725775700004306,None,None,None,27.659060400008457,None,27.659060400008457,None,0.6472222222222223,-0.6133333333333333,1,0,0,next_button,0.00903568000649102,None,001,,,,,2022-11-21_18h54.56.169,blockedTrials,2022.1.3,59.97220888322041,
stims\IMG_0020.jpg,3,1,2,0,19,19,19,,,,,27.892636400007177,None,None,None,27.82601390001946,None,27.82601390001946,None,0.6472222222222223,-0.6133333333333333,1,0,0,next_button,0.016009800019674003,None,001,,,,,2022-11-21_18h54.56.169,blockedTrials,2022.1.3,59.97220888322041,
stims\IMG_0021.jpg,4,2,2,0,20,20,20,,,,,28.04277650002041,None,None,None,27.976252899999963,None,27.976252899999963,None,0.6472222222222223,-0.6133333333333333,1,0,0,next_button,0.00814367999555543,None,001,,,,,2022-11-21_18h54.56.169,blockedTrials,2022.1.3,59.97220888322041,
stims\IMG_0022.jpg,3,2,2,0,21,21,21,,,,,None,None,None,None,28.32667420001235,None,28.32667420001235,None,0.6472222222222223,-0.6133333333333333,1,0,0,next_button,0.0073830199835356325,None,001,,,,,2022-11-21_18h54.56.169,blockedTrials,2022.1.3,59.97220888322041,
stims\IMG_0023.jpg,1,2,2,0,22,22,22,,,,,28.543413020006845,None,None,None,28.460069699998712,None,28.460069699998712,None,0.6472222222222223,-0.6133333333333333,1,0,0,next_button,0.0036556800187099725,None,001,,,,,2022-11-21_18h54.56.169,blockedTrials,2022.1.3,59.97220888322041,
stims\IMG_0024.jpg,1,2,2,0,23,23,23,,,,,28.693346300016856,None,None,None,28.626788299996406,None,28.626788299996406,None,0.6472222222222223,-0.6133333333333333,1,0,0,next_button,0.015944700018735602,None,001,,,,,2022-11-21_18h54.56.169,blockedTrials,2022.1.3,59.97220888322041,
