stimFile,correctAnswer,intensity,stimuliGender,EmotionTests.thisRepN,EmotionTests.thisTrialN,EmotionTests.thisN,EmotionTests.thisIndex,Instructions.started,Instructions.stopped,mouse.started,mouse.stopped,image.started,image.stopped,slider.response,slider.rt,slider.started,slider.stopped,next_button.started,next_button.stopped,mouse_2.x,mouse_2.y,mouse_2.leftButton,mouse_2.midButton,mouse_2.rightButton,mouse_2.clicked_name,mouse_2.started,mouse_2.stopped,session,participant,age,gender,ethnicity,date,expName,psychopyVersion,frameRate,
,,,,,,,,17.41959449998103,None,0.015518359752604738,None,,,,,,,,,,,,,,,,,001,,,,,2022-11-21_17h21.23.166,blockedTrials,2022.1.3,59.94406020274841,
stims\IMG_0001.jpg,1,2,1,0,0,0,0,,,,,18.170594700000947,None,4,0.7265970000007655,18.086880699993344,None,18.086880699993344,None,0.5944444444444444,-0.6111111111111112,1,0,0,next_button,0.0033707800321280956,None,001,,,,,2022-11-21_17h21.23.166,blockedTrials,2022.1.3,59.94406020274841,
stims\IMG_0002.jpg,4,1,1,0,1,1,1,,,,,19.12122490000911,None,4,0.39686609999625944,19.037844200007385,None,19.037844200007385,None,0.5916666666666667,-0.5933333333333334,1,0,0,next_button,0.006849880010122433,None,001,,,,,2022-11-21_17h21.23.166,blockedTrials,2022.1.3,59.94406020274841,
stims\IMG_0003.jpg,3,2,1,0,2,2,2,,,,,19.73847539999406,None,4,0.4938548000063747,19.67183279999881,None,19.67183279999881,None,0.6236111111111111,-0.5711111111111111,1,0,0,next_button,0.0010745799809228629,None,001,,,,,2022-11-21_17h21.23.166,blockedTrials,2022.1.3,59.94406020274841,
stims\IMG_0004.jpg,1,1,1,0,3,3,3,,,,,20.75598909999826,None,4,0.34040109999477863,20.522770899988245,None,20.522770899988245,None,0.6847222222222222,-0.6222222222222222,1,0,0,next_button,0.0036445499572437257,None,001,,,,,2022-11-21_17h21.23.166,blockedTrials,2022.1.3,59.94406020274841,
stims\IMG_0005.jpg,3,1,1,0,4,4,4,,,,,21.25658449999173,None,4,0.42841439999756403,21.106445399986114,None,21.106445399986114,None,0.6319444444444444,-0.5844444444444444,1,0,0,next_button,0.0063613800157327205,None,001,,,,,2022-11-21_17h21.23.166,blockedTrials,2022.1.3,59.94406020274841,
stims\IMG_0006.jpg,2,2,1,0,5,5,5,,,,,22.040747799997916,None,None,None,21.907153499982087,None,21.907153499982087,None,0.6375,-0.5866666666666667,1,0,0,next_button,0.003201539977453649,None,001,,,,,2022-11-21_17h21.23.166,blockedTrials,2022.1.3,59.94406020274841,
stims\IMG_0007.jpg,1,1,1,0,6,6,6,,,,,22.441190799989272,None,None,None,22.29084239999065,None,22.29084239999065,None,0.6375,-0.5844444444444444,1,0,0,next_button,0.004361180006526411,None,001,,,,,2022-11-21_17h21.23.166,blockedTrials,2022.1.3,59.94406020274841,
stims\IMG_0008.jpg,4,1,1,0,7,7,7,,,,,None,None,None,None,22.524405999982264,None,22.524405999982264,None,0.6375,-0.5844444444444444,1,0,0,next_button,0.0022240800026338547,None,001,,,,,2022-11-21_17h21.23.166,blockedTrials,2022.1.3,59.94406020274841,
stims\IMG_0009.jpg,4,2,1,0,8,8,8,,,,,22.72460560000036,None,None,None,22.658020300004864,None,22.658020300004864,None,0.6375,-0.5822222222222222,1,0,0,next_button,0.012511149980127811,None,001,,,,,2022-11-21_17h21.23.166,blockedTrials,2022.1.3,59.94406020274841,
stims\IMG_0010.jpg,1,1,1,0,9,9,9,,,,,22.908108899981016,None,None,None,22.841446500009624,None,22.841446500009624,None,0.6375,-0.5822222222222222,1,0,0,next_button,0.013489349978044629,None,001,,,,,2022-11-21_17h21.23.166,blockedTrials,2022.1.3,59.94406020274841,
stims\IMG_0011.jpg,2,2,1,0,10,10,10,,,,,23.075130999990506,None,None,None,23.008282700000564,None,23.008282700000564,None,0.6375,-0.5822222222222222,1,0,0,next_button,0.00881947999005206,None,001,,,,,2022-11-21_17h21.23.166,blockedTrials,2022.1.3,59.94406020274841,
stims\IMG_0012.jpg,3,1,1,0,11,11,11,,,,,23.308776399993803,None,None,None,23.22533889999613,None,23.22533889999613,None,0.6375,-0.58,1,0,0,next_button,0.004615580022800714,None,001,,,,,2022-11-21_17h21.23.166,blockedTrials,2022.1.3,59.94406020274841,
stims\IMG_0013.jpg,2,1,2,0,12,12,12,,,,,23.50885469999048,None,None,None,23.408653599995887,None,23.408653599995887,None,0.6361111111111111,-0.5777777777777777,1,0,0,next_button,0.007816549972631037,None,001,,,,,2022-11-21_17h21.23.166,blockedTrials,2022.1.3,59.94406020274841,
stims\IMG_0014.jpg,2,1,2,0,13,13,13,,,,,23.658770699985325,None,None,None,23.59215789998416,None,23.59215789998416,None,0.6361111111111111,-0.5777777777777777,1,0,0,next_button,0.008069480012636632,None,001,,,,,2022-11-21_17h21.23.166,blockedTrials,2022.1.3,59.94406020274841,
stims\IMG_0015.jpg,3,2,2,0,14,14,14,,,,,23.842360699985875,None,None,None,23.759057399991434,None,23.759057399991434,None,0.6361111111111111,-0.5755555555555556,1,0,0,next_button,0.007689779973588884,None,001,,,,,2022-11-21_17h21.23.166,blockedTrials,2022.1.3,59.94406020274841,
stims\IMG_0016.jpg,4,1,2,0,15,15,15,,,,,24.042631999996956,None,None,None,23.942341199988732,None,23.942341199988732,None,0.6361111111111111,-0.5755555555555556,1,0,0,next_button,0.006478380004409701,None,001,,,,,2022-11-21_17h21.23.166,blockedTrials,2022.1.3,59.94406020274841,
stims\IMG_0017.jpg,2,1,2,0,16,16,16,,,,,None,None,None,None,24.126017100003082,None,24.126017100003082,None,0.6361111111111111,-0.5755555555555556,1,0,0,next_button,0.007342580007389188,None,001,,,,,2022-11-21_17h21.23.166,blockedTrials,2022.1.3,59.94406020274841,
stims\IMG_0018.jpg,2,2,2,0,17,17,17,,,,,24.27622967000061,None,None,None,24.20935739998822,None,24.20935739998822,None,0.6361111111111111,-0.5755555555555556,1,0,0,next_button,0.008625680027762428,None,001,,,,,2022-11-21_17h21.23.166,blockedTrials,2022.1.3,59.94406020274841,
stims\IMG_0019.jpg,4,2,2,0,18,18,18,,,,,24.34288949999609,None,None,None,24.34288949999609,None,24.34288949999609,None,0.6361111111111111,-0.5755555555555556,1,0,0,next_button,0.003578179981559515,None,001,,,,,2022-11-21_17h21.23.166,blockedTrials,2022.1.3,59.94406020274841,
stims\IMG_0020.jpg,3,1,2,0,19,19,19,,,,,24.543139799992787,None,None,None,24.459701499989023,None,24.459701499989023,None,0.6361111111111111,-0.5755555555555556,1,0,0,next_button,0.007853780000004917,None,001,,,,,2022-11-21_17h21.23.166,blockedTrials,2022.1.3,59.94406020274841,
stims\IMG_0021.jpg,4,2,2,0,20,20,20,,,,,24.96010229998501,None,None,None,24.876774600008503,None,24.876774600008503,None,0.6361111111111111,-0.5755555555555556,1,0,0,next_button,0.006796480010962114,None,001,,,,,2022-11-21_17h21.23.166,blockedTrials,2022.1.3,59.94406020274841,
stims\IMG_0022.jpg,3,2,2,0,21,21,21,,,,,25.44405629998073,None,None,None,25.344059399998514,None,25.344059399998514,None,0.6361111111111111,-0.5755555555555556,1,0,0,next_button,0.013969160005217418,None,001,,,,,2022-11-21_17h21.23.166,blockedTrials,2022.1.3,59.94406020274841,
stims\IMG_0023.jpg,1,2,2,0,22,22,22,,,,,None,None,None,None,25.577576999989105,None,25.577576999989105,None,0.6361111111111111,-0.5755555555555556,1,0,0,next_button,0.0067471800139173865,None,001,,,,,2022-11-21_17h21.23.166,blockedTrials,2022.1.3,59.94406020274841,
stims\IMG_0024.jpg,1,2,2,0,23,23,23,,,,,25.794275399995968,None,None,None,25.727669099986088,None,25.727669099986088,None,0.6361111111111111,-0.5755555555555556,1,0,0,next_button,0.01613684996846132,None,001,,,,,2022-11-21_17h21.23.166,blockedTrials,2022.1.3,59.94406020274841,
