stimFile,correctAnswer,intensity,stimuliGender,EmotionTests.thisRepN,EmotionTests.thisTrialN,EmotionTests.thisN,EmotionTests.thisIndex,Instructions.started,Instructions.stopped,mouse.started,mouse.stopped,image.started,image.stopped,slider.response,slider.rt,slider.started,slider.stopped,next_button.started,next_button.stopped,mouse_2.x,mouse_2.y,mouse_2.leftButton,mouse_2.midButton,mouse_2.rightButton,mouse_2.clicked_name,mouse_2.started,mouse_2.stopped,session,participant,age,gender,ethnicity,date,expName,psychopyVersion,frameRate,
,,,,,,,,17.55694060001406,None,0.01336130005074665,None,,,,,,,,,,,,,,,,,001,,,,,2022-11-21_13h15.08.519,blockedTrials,2022.1.3,59.92527318737854,
stims\IMG_0001.jpg,1,2,1,0,0,0,0,,,,,18.457958899991354,None,4,0.7934895000071265,18.374368399992818,None,18.374368399992818,None,0.6083333333333333,-0.5866666666666667,1,0,0,next_button,0.003159759973641485,None,001,,,,,2022-11-21_13h15.08.519,blockedTrials,2022.1.3,59.92527318737854,
stims\IMG_0002.jpg,4,1,1,0,1,1,1,,,,,19.475738300010562,None,4,0.34839369999826886,19.358657100005075,None,19.358657100005075,None,0.6527777777777778,-0.5755555555555556,1,0,0,next_button,0.005585759994573891,None,001,,,,,2022-11-21_13h15.08.519,blockedTrials,2022.1.3,59.92527318737854,
stims\IMG_0003.jpg,3,2,1,0,2,2,2,,,,,20.0260156999866,None,4,0.28789489998598583,19.94278049998684,None,19.94278049998684,None,0.6263888888888889,-0.58,1,0,0,next_button,0.015360300021711737,None,001,,,,,2022-11-21_13h15.08.519,blockedTrials,2022.1.3,59.92527318737854,
stims\IMG_0004.jpg,1,1,1,0,3,3,3,,,,,20.79329540001345,None,4,0.30774690001271665,20.559784699988086,None,20.559784699988086,None,0.6027777777777777,-0.5977777777777777,1,0,0,next_button,0.0015003400039859116,None,001,,,,,2022-11-21_13h15.08.519,blockedTrials,2022.1.3,59.92527318737854,
stims\IMG_0005.jpg,3,1,1,0,4,4,4,,,,,21.29397450000397,None,4,0.2775878999964334,21.127203100011684,None,21.127203100011684,None,0.6597222222222222,-0.5955555555555555,1,0,0,next_button,0.0017274999991059303,None,001,,,,,2022-11-21_13h15.08.519,blockedTrials,2022.1.3,59.92527318737854,
stims\IMG_0006.jpg,2,2,1,0,5,5,5,,,,,21.877742799988482,None,4,0.28051959999720566,21.744173899991438,None,21.744173899991438,None,0.6527777777777778,-0.6066666666666667,1,0,0,next_button,0.007186479982919991,None,001,,,,,2022-11-21_13h15.08.519,blockedTrials,2022.1.3,59.92527318737854,
stims\IMG_0007.jpg,1,1,1,0,6,6,6,,,,,22.42825170001015,None,4,0.320075600000564,22.31147190000047,None,22.31147190000047,None,0.6361111111111111,-0.5844444444444444,1,0,0,next_button,0.014444040018133819,None,001,,,,,2022-11-21_13h15.08.519,blockedTrials,2022.1.3,59.92527318737854,
stims\IMG_0008.jpg,4,1,1,0,7,7,7,,,,,22.91217319999123,None,4,0.3093533999926876,22.828502699994715,None,22.828502699994715,None,0.6972222222222222,-0.6288888888888889,1,0,0,next_button,0.0036735599860548973,None,001,,,,,2022-11-21_13h15.08.519,blockedTrials,2022.1.3,59.92527318737854,
stims\IMG_0009.jpg,4,2,1,0,8,8,8,,,,,23.412394399987534,None,3,0.6117617999843787,23.32917099999031,None,23.32917099999031,None,0.7638888888888888,-0.5977777777777777,1,0,0,next_button,0.005560160003369674,None,001,,,,,2022-11-21_13h15.08.519,blockedTrials,2022.1.3,59.92527318737854,
stims\IMG_0010.jpg,1,1,1,0,9,9,9,,,,,24.330092499993043,None,3,0.9851305999909528,24.263266199995996,None,24.263266199995996,None,0.6111111111111112,-0.5688888888888889,1,0,0,next_button,0.011277400015387684,None,001,,,,,2022-11-21_13h15.08.519,blockedTrials,2022.1.3,59.92527318737854,
stims\IMG_0011.jpg,2,2,1,0,10,10,10,,,,,25.648032400000375,None,3,0.46614879998378456,25.564569899986964,None,25.564569899986964,None,0.6472222222222223,-0.6488888888888888,1,0,0,next_button,0.0072295599966309965,None,001,,,,,2022-11-21_13h15.08.519,blockedTrials,2022.1.3,59.92527318737854,
stims\IMG_0012.jpg,3,1,1,0,11,11,11,,,,,26.398681599996053,None,3,0.420554499985883,26.315362800000003,None,26.315362800000003,None,0.6222222222222222,-0.5688888888888889,1,0,0,next_button,0.014274200017098337,None,001,,,,,2022-11-21_13h15.08.519,blockedTrials,2022.1.3,59.92527318737854,
stims\IMG_0013.jpg,2,1,2,0,12,12,12,,,,,27.216282200010028,None,3,0.42713160000857897,27.13289129998884,None,27.13289129998884,None,0.6361111111111111,-0.5577777777777778,1,0,0,next_button,0.004234259977238253,None,001,,,,,2022-11-21_13h15.08.519,blockedTrials,2022.1.3,59.92527318737854,
stims\IMG_0014.jpg,2,1,2,0,13,13,13,,,,,27.900204300007317,None,3,0.3802387000177987,27.800210299988976,None,27.800210299988976,None,0.7263888888888889,-0.5844444444444444,1,0,0,next_button,0.006541460024891421,None,001,,,,,2022-11-21_13h15.08.519,blockedTrials,2022.1.3,59.92527318737854,
stims\IMG_0015.jpg,3,2,2,0,14,14,14,,,,,28.534027299989248,None,3,0.39627360002486967,28.45060109999031,None,28.45060109999031,None,0.6888888888888889,-0.5755555555555556,1,0,0,next_button,0.006752059998689219,None,001,,,,,2022-11-21_13h15.08.519,blockedTrials,2022.1.3,59.92527318737854,
stims\IMG_0016.jpg,4,1,2,0,15,15,15,,,,,29.20159420001437,None,3,0.3994941000128165,29.1011725999997,None,29.1011725999997,None,0.6541666666666667,-0.5666666666666667,1,0,0,next_button,0.006518059992231429,None,001,,,,,2022-11-21_13h15.08.519,blockedTrials,2022.1.3,59.92527318737854,
stims\IMG_0017.jpg,2,1,2,0,16,16,16,,,,,30.119128499994986,None,3,0.3489250999991782,30.01904059998924,None,30.01904059998924,None,0.5611111111111111,-0.5733333333333334,1,0,0,next_button,0.007519600010709837,None,001,,,,,2022-11-21_13h15.08.519,blockedTrials,2022.1.3,59.92527318737854,
stims\IMG_0018.jpg,2,2,2,0,17,17,17,,,,,31.03679790001479,None,3,1.6866456000134349,30.936538000009023,None,30.936538000009023,None,0.7611111111111111,-0.6177777777777778,1,0,0,next_button,0.012546499987365678,None,001,,,,,2022-11-21_13h15.08.519,blockedTrials,2022.1.3,59.92527318737854,
stims\IMG_0019.jpg,4,2,2,0,18,18,18,,,,,33.071974799997406,None,None,None,32.98832480001147,None,32.98832480001147,None,0.7347222222222223,-0.5911111111111111,1,0,0,next_button,0.00811040002736263,None,001,,,,,2022-11-21_13h15.08.519,blockedTrials,2022.1.3,59.92527318737854,
stims\IMG_0020.jpg,3,1,2,0,19,19,19,,,,,33.35518909999519,None,None,None,33.288571599987336,None,33.288571599987336,None,0.7347222222222223,-0.5888888888888889,1,0,0,next_button,0.015085299994098023,None,001,,,,,2022-11-21_13h15.08.519,blockedTrials,2022.1.3,59.92527318737854,
stims\IMG_0021.jpg,4,2,2,0,20,20,20,,,,,33.55539520000457,None,None,None,33.472319499996956,None,33.472319499996956,None,0.7347222222222223,-0.5888888888888889,1,0,0,next_button,0.006590559991309419,None,001,,,,,2022-11-21_13h15.08.519,blockedTrials,2022.1.3,59.92527318737854,
stims\IMG_0022.jpg,3,2,2,0,21,21,21,,,,,33.75573450000957,None,None,None,33.672366799990414,None,33.672366799990414,None,0.7347222222222223,-0.5866666666666667,1,0,0,next_button,0.0074565600079949945,None,001,,,,,2022-11-21_13h15.08.519,blockedTrials,2022.1.3,59.92527318737854,
stims\IMG_0023.jpg,1,2,2,0,22,22,22,,,,,34.005796799989184,None,None,None,33.93918740001391,None,33.93918740001391,None,0.7347222222222223,-0.5866666666666667,1,0,0,next_button,0.008567359996959567,None,001,,,,,2022-11-21_13h15.08.519,blockedTrials,2022.1.3,59.92527318737854,
stims\IMG_0024.jpg,1,2,2,0,23,23,23,,,,,34.28952690001461,None,None,None,34.22294070001226,None,34.22294070001226,None,0.7347222222222223,-0.5866666666666667,1,0,0,next_button,0.005540559970540926,None,001,,,,,2022-11-21_13h15.08.519,blockedTrials,2022.1.3,59.92527318737854,
