stimFile,correctAnswer,intensity,stimuliGender,EmotionTests.thisRepN,EmotionTests.thisTrialN,EmotionTests.thisN,EmotionTests.thisIndex,Instructions.started,Instructions.stopped,mouse.started,mouse.stopped,image.started,image.stopped,slider.response,slider.rt,slider.started,slider.stopped,next_button.started,next_button.stopped,mouse_2.x,mouse_2.y,mouse_2.leftButton,mouse_2.midButton,mouse_2.rightButton,mouse_2.clicked_name,mouse_2.started,mouse_2.stopped,session,participant,age,gender,ethnicity,date,expName,psychopyVersion,frameRate,
,,,,,,,,17.29884940001648,None,0.015634401002898812,None,,,,,,,,,,,,,,,,,001,,,,,2022-11-22_10h09.09.167,blockedTrials,2022.1.3,59.98166959486804,
stims\IMG_0001.jpg,1,2,1,0,0,0,0,,,,,17.88281099998858,None,4,0.9278208999894559,17.782452600018587,None,17.782452600018587,None,0.6444444444444445,-0.5755555555555556,1,0,0,next_button,0.004763920034747571,None,001,,,,,2022-11-22_10h09.09.167,blockedTrials,2022.1.3,59.98166959486804,
stims\IMG_0002.jpg,4,1,1,0,1,1,1,,,,,19.267210600024555,None,None,None,19.18386749998899,None,19.18386749998899,None,0.6444444444444445,-0.5755555555555556,1,0,0,next_button,0.004482220101635903,None,001,,,,,2022-11-22_10h09.09.167,blockedTrials,2022.1.3,59.98166959486804,
stims\IMG_0003.jpg,3,2,1,0,2,2,2,,,,,19.601031700032763,None,None,None,19.534085799998138,None,19.534085799998138,None,0.6444444444444445,-0.5733333333333334,1,0,0,next_button,0.008001920068636537,None,001,,,,,2022-11-22_10h09.09.167,blockedTrials,2022.1.3,59.98166959486804,
stims\IMG_0004.jpg,1,1,1,0,3,3,3,,,,,20.23513310000999,None,None,None,20.001266600040253,None,20.001266600040253,None,0.6444444444444445,-0.5688888888888889,1,0,0,next_button,0.004317870072554797,None,001,,,,,2022-11-22_10h09.09.167,blockedTrials,2022.1.3,59.98166959486804,
stims\IMG_0005.jpg,3,1,1,0,4,4,4,,,,,20.568426800018642,None,None,None,20.434981400030665,None,20.434981400030665,None,0.6444444444444445,-0.5688888888888889,1,0,0,next_button,0.015167450008448213,None,001,,,,,2022-11-22_10h09.09.167,blockedTrials,2022.1.3,59.98166959486804,
stims\IMG_0006.jpg,2,2,1,0,5,5,5,,,,,20.885619900014717,None,None,None,20.75197440001648,None,20.75197440001648,None,0.6444444444444445,-0.5666666666666667,1,0,0,next_button,0.000911500072106719,None,001,,,,,2022-11-22_10h09.09.167,blockedTrials,2022.1.3,59.98166959486804,
stims\IMG_0007.jpg,1,1,1,0,6,6,6,,,,,None,None,None,None,21.002464000019245,None,21.002464000019245,None,0.6444444444444445,-0.5666666666666667,1,0,0,next_button,0.01255908003076911,None,001,,,,,2022-11-22_10h09.09.167,blockedTrials,2022.1.3,59.98166959486804,
stims\IMG_0008.jpg,4,1,1,0,7,7,7,,,,,None,None,None,None,21.135891000041738,None,21.135891000041738,None,0.6444444444444445,-0.5666666666666667,1,0,0,next_button,0.011130350001621991,None,001,,,,,2022-11-22_10h09.09.167,blockedTrials,2022.1.3,59.98166959486804,
stims\IMG_0009.jpg,4,2,1,0,8,8,8,,,,,None,None,None,None,21.26930949999951,None,21.26930949999951,None,0.6444444444444445,-0.5666666666666667,1,0,0,next_button,0.014565180114004761,None,001,,,,,2022-11-22_10h09.09.167,blockedTrials,2022.1.3,59.98166959486804,
stims\IMG_0010.jpg,1,1,1,0,9,9,9,,,,,None,None,None,None,21.38586010003928,None,21.38586010003928,None,0.6430555555555556,-0.5666666666666667,1,0,0,next_button,0.0046325200237333775,None,001,,,,,2022-11-22_10h09.09.167,blockedTrials,2022.1.3,59.98166959486804,
stims\IMG_0011.jpg,2,2,1,0,10,10,10,,,,,21.652788100007456,None,None,None,21.519393900001887,None,21.519393900001887,None,0.6430555555555556,-0.5644444444444444,1,0,0,next_button,0.00958062004065141,None,001,,,,,2022-11-22_10h09.09.167,blockedTrials,2022.1.3,59.98166959486804,
stims\IMG_0012.jpg,3,1,1,0,11,11,11,,,,,21.936485400015954,None,None,None,21.86973910004599,None,21.86973910004599,None,0.6430555555555556,-0.5644444444444444,1,0,0,next_button,0.008701720042154193,None,001,,,,,2022-11-22_10h09.09.167,blockedTrials,2022.1.3,59.98166959486804,
stims\IMG_0013.jpg,2,1,2,0,12,12,12,,,,,22.186907330004033,None,None,None,22.1200308999978,None,22.1200308999978,None,0.6430555555555556,-0.5644444444444444,1,0,0,next_button,0.008992420043796301,None,001,,,,,2022-11-22_10h09.09.167,blockedTrials,2022.1.3,59.98166959486804,
stims\IMG_0014.jpg,2,1,2,0,13,13,13,,,,,22.320125800033566,None,None,None,22.253451300028246,None,22.253451300028246,None,0.6430555555555556,-0.5644444444444444,1,0,0,next_button,0.009978919988498092,None,001,,,,,2022-11-22_10h09.09.167,blockedTrials,2022.1.3,59.98166959486804,
stims\IMG_0015.jpg,3,2,2,0,14,14,14,,,,,22.570363500039093,None,None,None,22.503635600034613,None,22.503635600034613,None,0.6430555555555556,-0.5644444444444444,1,0,0,next_button,0.008927820075768977,None,001,,,,,2022-11-22_10h09.09.167,blockedTrials,2022.1.3,59.98166959486804,
stims\IMG_0016.jpg,4,1,2,0,15,15,15,,,,,22.820537400024477,None,None,None,22.737149099993985,None,22.737149099993985,None,0.6430555555555556,-0.5644444444444444,1,0,0,next_button,0.006762220000382513,None,001,,,,,2022-11-22_10h09.09.167,blockedTrials,2022.1.3,59.98166959486804,
stims\IMG_0017.jpg,2,1,2,0,16,16,16,,,,,23.087510100041982,None,None,None,23.020830099994782,None,23.020830099994782,None,0.6430555555555556,-0.5644444444444444,1,0,0,next_button,0.007962420000694692,None,001,,,,,2022-11-22_10h09.09.167,blockedTrials,2022.1.3,59.98166959486804,
stims\IMG_0018.jpg,2,2,2,0,17,17,17,,,,,None,None,None,None,23.187807100010104,None,23.187807100010104,None,0.6430555555555556,-0.5644444444444444,1,0,0,next_button,0.007829819980543107,None,001,,,,,2022-11-22_10h09.09.167,blockedTrials,2022.1.3,59.98166959486804,
stims\IMG_0019.jpg,4,2,2,0,18,18,18,,,,,23.387879799993243,None,None,None,23.32109290000517,None,23.32109290000517,None,0.6430555555555556,-0.5644444444444444,1,0,0,next_button,0.010092420037835836,None,001,,,,,2022-11-22_10h09.09.167,blockedTrials,2022.1.3,59.98166959486804,
stims\IMG_0020.jpg,3,1,2,0,19,19,19,,,,,None,None,None,None,23.471171999990474,None,23.471171999990474,None,0.6430555555555556,-0.5644444444444444,1,0,0,next_button,0.0052645200048573315,None,001,,,,,2022-11-22_10h09.09.167,blockedTrials,2022.1.3,59.98166959486804,
stims\IMG_0021.jpg,4,2,2,0,20,20,20,,,,,23.671334300015587,None,None,None,23.604643300001044,None,23.604643300001044,None,0.6430555555555556,-0.5644444444444444,1,0,0,next_button,0.010665620036888868,None,001,,,,,2022-11-22_10h09.09.167,blockedTrials,2022.1.3,59.98166959486804,
stims\IMG_0022.jpg,3,2,2,0,21,21,21,,,,,23.90492030000314,None,None,None,23.838178000005428,None,23.838178000005428,None,0.6430555555555556,-0.5644444444444444,1,0,0,next_button,0.008682220068294555,None,001,,,,,2022-11-22_10h09.09.167,blockedTrials,2022.1.3,59.98166959486804,
stims\IMG_0023.jpg,1,2,2,0,22,22,22,,,,,24.271924900007434,None,None,None,24.1886102000135,None,24.1886102000135,None,0.6430555555555556,-0.5644444444444444,1,0,0,next_button,0.007746620045509189,None,001,,,,,2022-11-22_10h09.09.167,blockedTrials,2022.1.3,59.98166959486804,
stims\IMG_0024.jpg,1,2,2,0,23,23,23,,,,,24.555702699988615,None,None,None,24.488930299994536,None,24.488930299994536,None,0.6430555555555556,-0.5644444444444444,1,0,0,next_button,0.010630119999404997,None,001,,,,,2022-11-22_10h09.09.167,blockedTrials,2022.1.3,59.98166959486804,
