stimFile,correctAnswer,intensity,stimuliGender,EmotionTests.thisRepN,EmotionTests.thisTrialN,EmotionTests.thisN,EmotionTests.thisIndex,Instructions.started,Instructions.stopped,mouse.started,mouse.stopped,image.started,image.stopped,slider.response,slider.rt,slider.started,slider.stopped,next_button.started,next_button.stopped,mouse_2.x,mouse_2.y,mouse_2.leftButton,mouse_2.midButton,mouse_2.rightButton,mouse_2.clicked_name,mouse_2.started,mouse_2.stopped,session,participant,age,gender,ethnicity,date,expName,psychopyVersion,frameRate,
,,,,,,,,54.39809000000059,None,0.0160424900095677,None,,,,,,,,,,,,,,,,,001,Steve_check this out!,75ish,male,white,2022-12-07_13h54.13.669,blockedTrials,2022.1.3,59.95207431175397,
stims\IMG_0001.jpg,1,2,1,0,0,0,0,,,,,55.58506760000091,57.622134900000674,1,2.629400900001201,55.527543300000616,None,55.527543300000616,None,0.6135416666666667,-0.6015625,1,0,0,next_button,0.013431889998173574,None,001,Steve_check this out!,75ish,male,white,2022-12-07_13h54.13.669,blockedTrials,2022.1.3,59.95207431175397,
stims\IMG_0002.jpg,4,1,1,0,1,1,1,,,,,59.58294250000108,61.61380350000036,2,1.7459928999996919,59.51412040000105,None,59.51412040000105,None,0.6364583333333333,-0.590625,1,0,0,next_button,0.01566150999860838,None,001,Steve_check this out!,75ish,male,white,2022-12-07_13h54.13.669,blockedTrials,2022.1.3,59.95207431175397,
stims\IMG_0003.jpg,3,2,1,0,2,2,2,,,,,62.41924889999973,64.43783910000093,4,2.4931649999998626,62.348614100001214,None,62.348614100001214,None,0.6302083333333334,-0.5984375,1,0,0,next_button,0.013838240000040969,None,001,Steve_check this out!,75ish,male,white,2022-12-07_13h54.13.669,blockedTrials,2022.1.3,59.95207431175397,
stims\IMG_0004.jpg,1,1,2,0,3,3,3,,,,,65.51404000000002,67.53698729999996,3,2.848448399998233,65.42249380000067,None,65.42249380000067,None,0.6989583333333333,-0.6265625,1,0,0,next_button,0.008113799998682225,None,001,Steve_check this out!,75ish,male,white,2022-12-07_13h54.13.669,blockedTrials,2022.1.3,59.95207431175397,
stims\IMG_0005.jpg,3,1,2,0,4,4,4,,,,,69.03952140000001,71.06055890000061,2,1.7546469000008074,68.95465619999959,None,68.95465619999959,None,0.6197916666666666,-0.5890625,1,0,0,next_button,0.0132863399994676,None,001,Steve_check this out!,75ish,male,white,2022-12-07_13h54.13.669,blockedTrials,2022.1.3,59.95207431175397,
stims\IMG_0006.jpg,2,2,1,0,5,5,5,,,,,71.85550560000047,73.86752370000067,2,1.8293040999997174,71.76762450000024,None,71.76762450000024,None,0.5895833333333333,-0.5828125,1,0,0,next_button,0.0003987300005974248,None,001,Steve_check this out!,75ish,male,white,2022-12-07_13h54.13.669,blockedTrials,2022.1.3,59.95207431175397,
stims\IMG_0007.jpg,1,1,1,0,6,6,6,,,,,74.43881259999944,76.46221340000011,2,2.0087426000009145,74.34537799999998,None,74.34537799999998,None,0.6947916666666667,-0.6140625,1,0,0,next_button,0.0076319500021782005,None,001,Steve_check this out!,75ish,male,white,2022-12-07_13h54.13.669,blockedTrials,2022.1.3,59.95207431175397,
stims\IMG_0008.jpg,4,1,2,0,7,7,7,,,,,77.2052046000008,79.22145219999948,1,2.861276400000861,77.13730390000092,None,77.13730390000092,None,0.6989583333333333,-0.60625,1,0,0,next_button,0.014993439999670954,None,001,Steve_check this out!,75ish,male,white,2022-12-07_13h54.13.669,blockedTrials,2022.1.3,59.95207431175397,
stims\IMG_0009.jpg,4,2,1,0,8,8,8,,,,,81.15906150000046,83.17027830000006,4,1.753489200000331,81.07452370000101,None,81.07452370000101,None,0.6583333333333333,-0.6140625,1,0,0,next_button,0.005578340000283788,None,001,Steve_check this out!,75ish,male,white,2022-12-07_13h54.13.669,blockedTrials,2022.1.3,59.95207431175397,
stims\IMG_0010.jpg,1,1,1,0,9,9,9,,,,,83.44227060000048,85.45179310000094,2,2.1907744000000093,83.35376170000018,None,83.35376170000018,None,0.6083333333333333,-0.5984375,1,0,0,next_button,0.0004065199991600821,None,001,Steve_check this out!,75ish,male,white,2022-12-07_13h54.13.669,blockedTrials,2022.1.3,59.95207431175397,
stims\IMG_0011.jpg,2,2,1,0,10,10,10,,,,,86.39510950000113,88.41288590000113,3,4.708853699999963,86.32457100000101,None,86.32457100000101,None,0.63125,-0.5859375,1,0,0,next_button,0.013041039999734494,None,001,Steve_check this out!,75ish,male,white,2022-12-07_13h54.13.669,blockedTrials,2022.1.3,59.95207431175397,
stims\IMG_0012.jpg,3,1,1,0,11,11,11,,,,,92.08370430000105,94.10027420000006,1,4.1582023999999365,91.98802760000035,None,91.98802760000035,None,0.6760416666666667,-0.6015625,1,0,0,next_button,0.00171384000168473,None,001,Steve_check this out!,75ish,male,white,2022-12-07_13h54.13.669,blockedTrials,2022.1.3,59.95207431175397,
stims\IMG_0013.jpg,2,1,2,0,12,12,12,,,,,97.13171010000042,99.14066900000034,2,1.8295097999998688,97.04024539999955,None,97.04024539999955,None,0.5947916666666667,-0.56875,1,0,0,next_button,0.009395540000696201,None,001,Steve_check this out!,75ish,male,white,2022-12-07_13h54.13.669,blockedTrials,2022.1.3,59.95207431175397,
stims\IMG_0014.jpg,2,1,1,0,13,13,13,,,,,99.6878926999998,101.70049040000049,2,1.7370764999996027,99.59207969999989,None,99.59207969999989,None,0.6427083333333333,-0.559375,1,0,0,next_button,0.008929040001021349,None,001,Steve_check this out!,75ish,male,white,2022-12-07_13h54.13.669,blockedTrials,2022.1.3,59.95207431175397,
stims\IMG_0015.jpg,3,2,1,0,14,14,14,,,,,102.15350779999972,None,3,1.4899671999992279,102.05768270000044,None,102.05768270000044,None,0.70625,-0.571875,1,0,0,next_button,0.011375340000085998,None,001,Steve_check this out!,75ish,male,white,2022-12-07_13h54.13.669,blockedTrials,2022.1.3,59.95207431175397,
stims\IMG_0016.jpg,4,1,1,0,15,15,15,,,,,104.25912450000033,106.28904820000025,4,2.0382754000002024,104.16033100000095,None,104.16033100000095,None,0.7260416666666667,-0.60625,1,0,0,next_button,0.006094640000810614,None,001,Steve_check this out!,75ish,male,white,2022-12-07_13h54.13.669,blockedTrials,2022.1.3,59.95207431175397,
stims\IMG_0017.jpg,2,1,1,0,16,16,16,,,,,107.07950680000067,109.10228330000064,1,4.3694579000002705,106.98650319999979,None,106.98650319999979,None,0.6729166666666667,-0.6140625,1,0,0,next_button,0.0107964400012861,None,001,Steve_check this out!,75ish,male,white,2022-12-07_13h54.13.669,blockedTrials,2022.1.3,59.95207431175397,
stims\IMG_0018.jpg,2,2,2,0,17,17,17,,,,,112.22351250000065,114.24732489999951,2,2.8621193999988463,112.14153720000104,None,112.14153720000104,None,0.628125,-0.6390625,1,0,0,next_button,0.008283940000183065,None,001,Steve_check this out!,75ish,male,white,2022-12-07_13h54.13.669,blockedTrials,2022.1.3,59.95207431175397,
stims\IMG_0019.jpg,4,2,2,0,18,18,18,,,,,115.75043220000043,117.76062810000076,4,1.4546909000000596,115.65554750000047,None,115.65554750000047,None,0.6354166666666666,-0.609375,1,0,0,next_button,0.00672243999906641,None,001,Steve_check this out!,75ish,male,white,2022-12-07_13h54.13.669,blockedTrials,2022.1.3,59.95207431175397,
stims\IMG_0020.jpg,3,1,1,0,19,19,19,,,,,118.09355870000036,120.11749869999949,3,2.0936908000003314,117.99983480000083,None,117.99983480000083,None,0.715625,-0.5921875,1,0,0,next_button,0.01517584000066563,None,001,Steve_check this out!,75ish,male,white,2022-12-07_13h54.13.669,blockedTrials,2022.1.3,59.95207431175397,
stims\IMG_0021.jpg,4,2,2,0,20,20,20,,,,,120.89876840000034,122.92470270000013,2,5.132463800000551,120.8088172000007,None,120.8088172000007,None,0.6145833333333334,-0.5984375,1,0,0,next_button,0.01210093999907258,None,001,Steve_check this out!,75ish,male,white,2022-12-07_13h54.13.669,blockedTrials,2022.1.3,59.95207431175397,
stims\IMG_0022.jpg,3,2,2,0,21,21,21,,,,,126.91103079999993,128.9288293999998,1,2.06826540000111,126.81615489999967,None,126.81615489999967,None,0.5989583333333334,-0.6078125,1,0,0,next_button,0.0077211400002852315,None,001,Steve_check this out!,75ish,male,white,2022-12-07_13h54.13.669,blockedTrials,2022.1.3,59.95207431175397,
stims\IMG_0023.jpg,1,2,2,0,22,22,22,,,,,130.03835299999992,132.05101420000028,1,6.988660499999241,129.93767389999994,None,129.93767389999994,None,0.6354166666666666,-0.6046875,1,0,0,next_button,0.009789839999939431,None,001,Steve_check this out!,75ish,male,white,2022-12-07_13h54.13.669,blockedTrials,2022.1.3,59.95207431175397,
stims\IMG_0024.jpg,1,2,2,0,23,23,23,,,,,139.68517389999943,141.7013504000006,1,11.265471099999559,139.5807181,None,139.5807181,None,0.7947916666666667,-0.5765625,1,0,0,next_button,0.0019501300012052525,None,001,Steve_check this out!,75ish,male,white,2022-12-07_13h54.13.669,blockedTrials,2022.1.3,59.95207431175397,
